RIES.at: 	Wmin: 80.0 Wmax: 850.0 gÃ¼ltig ab: 01.01.2006 00:00:00
   77 Wertepaare (W,Q)
   80   52.0
   90   59.4
  100   67.4
  110   76.0
  120   85.3
  130   95.2
  140  106.0
  150  117.0
  160  129.0
  170  142.0
  180  155.0
  190  169.0
  200  184.0
  210  200.0
  220  217.0
  230  234.0
  240  253.0
  250  272.0
  260  292.0
  270  312.0
  280  334.0
  290  357.0
  300  380.0
  310  405.0
  320  430.0
  330  457.0
  340  482.0
  350  508.0
  360  535.0
  370  563.0
  380  591.0
  390  620.0
  400  650.0
  410  680.0
  420  711.0
  430  743.0
  440  776.0
  450  809.0
  460  843.0
  470  877.0
  480  912.0
  490  948.0
  500  985.0
  510 1020.0
  520 1060.0
  530 1100.0
  540 1140.0
  550 1180.0
  560 1220.0
  570 1260.0
  580 1300.0
  590 1350.0
  600 1400.0
  610 1450.0
  620 1500.0
  630 1550.0
  640 1600.0
  650 1650.0
  660 1710.0
  670 1770.0
  680 1820.0
  690 1880.0
  700 1940.0
  710 2000.0
  720 2060.0
  730 2130.0
  740 2190.0
  750 2260.0
  760 2330.0
  770 2400.0
  780 2470.0
  800 2610.0
  810 2690.0
  820 2760.0
  830 2840.0
  840 2920.0
  850 3000.0
